Folder: LmpXrd/example/NaCl_bench

Note: README.md
# XrdDev
Codes for partial distribution function and XRD

File: o.S_XRD.dat
bin                 q                   S
0                   0.005000            7187.19
3                   0.035000            1963.66
6                   0.065000            -1584.54
9                   0.095000            352.789
12                  0.125000            555.031
15                  0.155000            -677.554
18                  0.185000            155.115
21                  0.215000            341.887
24                  0.245000            -400.192
27                  0.275000            105.273
30                  0.305000            243.306
33                  0.335000            -293.874
36                  0.365000            60.2825
39                  0.395000            179.941
42                  0.425000            -227.487
45                  0.455000            39.5147
48                  0.485000            132.381
51                  0.515000            -189.568
54                  0.545000            51.5998
57                  0.575000            141.087
60                  0.605000            -153.924
63                  0.635000            31.8458
66                  0.665000            117.35
69                  0.695000            -147.822
72                  0.725000            3.852450
75                  0.755000            113.994
78                  0.785000            -98.1865
81                  0.815000            14.0944
84                  0.845000            98.725
87                  0.875000            -99.4151
90                  0.905000            -8.535496
93                  0.935000            90.3384
96                  0.965000            -67.8572
99                  0.995000            -1.526347
102                 1.025000            68.6767
105                 1.055000            -87.3072
108                 1.085000            -17.7446
111                 1.115000            90.1485
114                 1.145000            -41.9848
117                 1.175000            -23.8823
120                 1.205000            53.3198
123                 1.235000            -48.9561
126                 1.265000            -14.7642
129                 1.295000            60.4363
132                 1.325000            -45.075
135                 1.355000            -16.6018
138                 1.385000            65.5902
141                 1.415000            -46.8956
144                 1.445000            -35.5936
147                 1.475000            68.3942
150                 1.505000            -28.1983
153                 1.535000            -40.1308
156                 1.565000            59.3682
159                 1.595000            -28.4827
162                 1.625000            -40.077
165                 1.655000            71.326
168                 1.685000            -21.0239
171                 1.715000            -41.0276
174                 1.745000            82.5403
177                 1.775000            -35.3085
180                 1.805000            -67.3291
183                 1.835000            96.253
186                 1.865000            -51.3524
189                 1.895000            -49.0988
192                 1.925000            323.514
195                 1.955000            138.72
198                 1.985000            -175.817
201                 2.015000            145.468
204                 2.045000            58.6306
207                 2.075000            -267.496
210                 2.105000            224.527
213                 2.135000            95.4586
216                 2.165000            -583.632
219                 2.195000            878.544
222                 2.225000            2679.78
225                 2.255000            1345.52
228                 2.285000            -491.913
231                 2.315000            -70.9457
234                 2.345000            296.512
237                 2.375000            -200.283
240                 2.405000            -24.0808
243                 2.435000            162.364
246                 2.465000            -127.259
249                 2.495000            0.439700
252                 2.525000            113.308
255                 2.555000            -97.4672
258                 2.585000            -2.684636
261                 2.615000            50.8192
264                 2.645000            -93.6349
267                 2.675000            38.6603
270                 2.705000            54.5421
273                 2.735000            -93.3767
276                 2.765000            47.8129
279                 2.795000            46.8252
282                 2.825000            -85.9394
285                 2.855000            65.3859
288                 2.885000            10.1609
291                 2.915000            -109.063
294                 2.945000            122.135
297                 2.975000            1.286988
300                 3.005000            -154.217
303                 3.035000            219.584
306                 3.065000            -66.5334
309                 3.095000            -374.926
312                 3.125000            1053.1
315                 3.155000            1980.07
318                 3.185000            546.625
321                 3.215000            -442.942
324                 3.245000            113.438
327                 3.275000            140.91
330                 3.305000            -187.419
333                 3.335000            64.9391
336                 3.365000            74.2505
339                 3.395000            -121.171
342                 3.425000            41.7842
345                 3.455000            50.5364
348                 3.485000            -76.0508
351                 3.515000            34.209
354                 3.545000            29.8088
357                 3.575000            -58.3819
360                 3.605000            22.7828
363                 3.635000            23.0026
366                 3.665000            -19.7598
369                 3.695000            54.8467
372                 3.725000            69.5144
375                 3.755000            0.248163
378                 3.785000            -82.8962
381                 3.815000            41.3495
384                 3.845000            521.677
387                 3.875000            601.705
390                 3.905000            1.521231
393                 3.935000            -176.636
396                 3.965000            132.585
399                 3.995000            15.7473
402                 4.025000            -119.538
405                 4.055000            91.1032
408                 4.085000            24.0745
411                 4.115000            -94.2916
414                 4.145000            78.7614
417                 4.175000            19.6397
420                 4.205000            -100.368
423                 4.235000            67.8613
426                 4.265000            31.5787
429                 4.295000            -96.0422
432                 4.325000            66.5907
435                 4.355000            38.493
438                 4.385000            -133.392
441                 4.415000            89.3726
444                 4.445000            310.471
447                 4.475000            174.363
450                 4.505000            21.3209
453                 4.535000            -35.7517
456                 4.565000            -14.0108
459                 4.595000            55.8272
462                 4.625000            -14.1328
465                 4.655000            -44.332
468                 4.685000            60.1172
471                 4.715000            -14.2552
474                 4.745000            -66.443
477                 4.775000            70.5788
480                 4.805000            -9.470930
483                 4.835000            -58.2845
486                 4.865000            156.935
489                 4.895000            -21.6453
492                 4.925000            -202.993
495                 4.955000            472.509
498                 4.985000            899.133
501                 5.015000            253.608
504                 5.045000            -175.119
507                 5.075000            48.2917
510                 5.105000            43.3508
513                 5.135000            -64.3509
516                 5.165000            42.3286
519                 5.195000            1.292098
522                 5.225000            -51.0068
525                 5.255000            50.9296
528                 5.285000            -11.5533
531                 5.315000            -46.0161
534                 5.345000            84.013
537                 5.375000            -46.277
540                 5.405000            -94.4152
543                 5.435000            409.787
546                 5.465000            628.179
549                 5.495000            128.831
552                 5.525000            -143.07
555                 5.555000            48.6321
558                 5.585000            42.2888
561                 5.615000            -66.8813
564                 5.645000            24.098
567                 5.675000            30.8776
570                 5.705000            -52.6896
573                 5.735000            9.282854
576                 5.765000            50.4758
579                 5.795000            4.330162
582                 5.825000            21.4764
585                 5.855000            11.4453
588                 5.885000            -31.3495
591                 5.915000            16.3927
594                 5.945000            21.1433
597                 5.975000            -31.3344
599                 5.995000            -10.2857