Folder: LmpXrd/example/NaCl_20x20x20/cpp

Note: README.md
# XrdDev
Codes for partial distribution function and XRD

File: o.S_XRD.dat
bin                 q                   S
0                   0.005000            5389.89
10                  0.105000            964.965
20                  0.205000            -1042.31
30                  0.305000            741.498
40                  0.405000            -428.47
50                  0.505000            -69.9002
60                  0.605000            377.786
70                  0.705000            -394.025
80                  0.805000            223.139
90                  0.905000            99.2664
100                 1.005000            -59.7445
110                 1.105000            163.465
120                 1.205000            -206.958
130                 1.305000            4.184911
140                 1.405000            -13.6315
150                 1.505000            -148.821
160                 1.605000            124.964
170                 1.705000            -137.487
180                 1.805000            -47.4313
190                 1.905000            334.764
200                 2.005000            -59.5278
210                 2.105000            23.7676
220                 2.205000            860.911
230                 2.305000            569.277
240                 2.405000            -238.926
250                 2.505000            -8.171991
260                 2.605000            51.5724
270                 2.705000            -91.8017
280                 2.805000            210.431
290                 2.905000            -104.699
300                 3.005000            -94.2146
310                 3.105000            598.482
320                 3.205000            374.094
330                 3.305000            -56.1861
340                 3.405000            -12.9414
350                 3.505000            3.354076
360                 3.605000            23.4638
370                 3.705000            -15.2575
380                 3.805000            147.212
390                 3.905000            249.346
400                 4.005000            -26.7377
410                 4.105000            -29.3017
420                 4.205000            29.6498
430                 4.305000            -13.0445
440                 4.405000            113.662
450                 4.505000            53.3527
460                 4.605000            -1.309924
470                 4.705000            -0.146114
480                 4.805000            -58.3989
490                 4.905000            194.482
500                 5.005000            280.49
510                 5.105000            16.5123
520                 5.205000            -64.3613
530                 5.305000            -0.754720
540                 5.405000            172.136
550                 5.505000            189.519
560                 5.605000            -34.0049
570                 5.705000            -7.869495
580                 5.805000            37.2427
590                 5.905000            -15.3618
600                 6.005000            38.8863
610                 6.105000            -37.1287
620                 6.205000            -16.9509
630                 6.305000            118.482
640                 6.405000            6.158824
650                 6.505000            -43.5129
660                 6.605000            91.536
670                 6.705000            121.768
680                 6.805000            12.1197
690                 6.905000            -24.5994
700                 7.005000            106.262
710                 7.105000            81.2621
720                 7.205000            -38.8102
730                 7.305000            55.514
740                 7.405000            82.7224
750                 7.505000            -22.3745
760                 7.605000            -5.758965
770                 7.705000            38.7032
780                 7.805000            -9.482659
790                 7.905000            -14.4843
800                 8.005000            73.9293
810                 8.105000            37.9493
820                 8.205000            -14.9112
830                 8.305000            80.7023
840                 8.405000            54.8716
850                 8.505000            3.305455
860                 8.605000            32.1009
870                 8.705000            -29.3587
880                 8.805000            2.948792
890                 8.905000            39.6426
900                 9.005000            -20.902
910                 9.105000            49.3379
920                 9.205000            61.8702
930                 9.305000            -0.705890
940                 9.405000            28.8985
950                 9.505000            9.226608
960                 9.605000            6.888555
970                 9.705000            32.5176
980                 9.805000            5.874525
990                 9.905000            22.1506
1000                10.005           18.6214
1010                10.105           14.3973
1020                10.205           48.0048
1030                10.305           12.1382
1040                10.405           -1.168782
1050                10.505           20.2853
1060                10.605           -3.937750
1070                10.705           5.284449
1080                10.805           14.9915
1090                10.905           1.296798
1100                11.005           21.8989
1110                11.105           16.2441
1120                11.205           1.878768
1130                11.305           28.2952
1140                11.405           26.3161
1150                11.505           10.9948
1160                11.605           17.5567
1170                11.705           -0.475069
1180                11.805           -6.499296
1190                11.905           25.644
1200                12.005           29.149
1210                12.105           14.0539
1220                12.205           12.6
1230                12.305           2.995730
1240                12.405           -1.975022
1250                12.505           2.105068
1260                12.605           0.910059
1270                12.705           9.174811
1280                12.805           17.9361
1290                12.905           11.2367
1300                13.005           8.546032
1310                13.105           14.4494
1320                13.205           9.054962
1330                13.305           3.980867
1340                13.405           11.4532
1350                13.505           6.706462
1360                13.605           4.528983
1370                13.705           17.764
1380                13.805           10.8916
1390                13.905           1.521131
1400                14.005           2.636678
1410                14.105           -1.346534
1420                14.205           11.6066
1430                14.305           16.0934
1440                14.405           0.722422
1450                14.505           6.859498
1460                14.605           10.9434
1470                14.705           2.327905
1480                14.805           4.552453
1490                14.905           7.972129
1500                15.005           11.1101
1510                15.105           9.761204
1520                15.205           2.534457
1530                15.305           -1.705742
1540                15.405           -1.517735
1550                15.505           7.707731
1560                15.605           9.064371
1570                15.705           3.969599
1580                15.805           8.563665
1590                15.905           5.396717
1600                16.005           3.043758
1610                16.105           6.390853
1620                16.205           3.158215
1630                16.305           10.0601
1640                16.405           11.7577
1650                16.505           -1.454304
1660                16.605           -0.562684
1670                16.705           6.547364
1680                16.805           5.336303
1690                16.905           2.937100
1700                17.005           3.236910
1710                17.105           5.538702
1720                17.205           3.058057
1730                17.305           -0.159048
1740                17.405           3.911218
1750                17.505           8.410660
1760                17.605           5.286355
1770                17.705           -0.929198
1780                17.805           0.660144
1790                17.905           5.453803
1800                18.005           6.420272
1810                18.105           7.149169
1820                18.205           4.442067
1830                18.305           1.254265
1840                18.405           3.595491
1850                18.505           5.212769
1860                18.605           3.895713
1870                18.705           0.828925
1880                18.805           -0.814652
1890                18.905           2.679323
1900                19.005           4.815874
1910                19.105           4.251380
1920                19.205           4.599401
1930                19.305           2.337801
1940                19.405           0.798132
1950                19.505           3.321231
1960                19.605           3.961231
1970                19.705           2.832096
1980                19.805           1.368330
1990                19.905           1.492352
1999                19.995           5.319776