Folder: LmpXrd/dev_example/Ni_10x10x10/cpp

Note: README.md
# XrdDev
Codes for partial distribution function and XRD

File: o.S_XRD.dat
bin                 q                   S
0                   0.025000            6366.73
2                   0.125000            2544.26
4                   0.225000            -1012.75
6                   0.325000            -349.019
8                   0.425000            1295.04
10                  0.525000            566.447
12                  0.625000            -667.132
14                  0.725000            -305.753
16                  0.825000            151.783
18                  0.925000            -417.05
20                  1.025000            -474.007
22                  1.125000            477.391
24                  1.225000            701.105
26                  1.325000            -80.67
28                  1.425000            -119.696
30                  1.525000            722.134
32                  1.625000            737.435
34                  1.725000            -168.704
36                  1.825000            -431.966
38                  1.925000            38.0219
40                  2.025000            0.818987
42                  2.125000            -427.041
44                  2.225000            -256.664
46                  2.325000            113.74
48                  2.425000            -128.535
50                  2.525000            -316.919
52                  2.625000            110.429
54                  2.725000            92.2889
56                  2.825000            -547.938
58                  2.925000            198.345
60                  3.025000            2627.04
62                  3.125000            3501.71
64                  3.225000            1247.67
66                  3.325000            -805.543
68                  3.425000            173.239
70                  3.525000            1892.45
72                  3.625000            1384.66
74                  3.725000            -53.0266
76                  3.825000            -112.729
78                  3.925000            355.286
80                  4.025000            -57.5054
82                  4.125000            -369.803
84                  4.225000            212.581
86                  4.325000            454.485
88                  4.425000            -89.8897
90                  4.525000            -120.024
92                  4.625000            378.315
94                  4.725000            18.9635
96                  4.825000            -691.818
98                  4.925000            -15.6116
100                 5.025000            1292.35
102                 5.125000            1051.9
104                 5.225000            -233.789
106                 5.325000            -390.208
108                 5.425000            358.255
110                 5.525000            222.32
112                 5.625000            -485.354
114                 5.725000            -136.218
116                 5.825000            972.616
118                 5.925000            1274.05
120                 6.025000            688.366
122                 6.125000            270.68
124                 6.225000            223.912
126                 6.325000            103.269
128                 6.425000            -45.3388
130                 6.525000            -12.9943
132                 6.625000            20.5513
134                 6.725000            -51.182
136                 6.825000            -49.6606
138                 6.925000            32.3639
140                 7.025000            62.6209
142                 7.125000            118.797
144                 7.225000            235.214
146                 7.325000            178.299
148                 7.425000            -83.6728
150                 7.525000            -191.137
152                 7.625000            22.148
154                 7.725000            286.321
156                 7.825000            383.543
158                 7.925000            365.488
160                 8.025000            275.646
162                 8.125000            114.597
164                 8.225000            -5.141126
166                 8.325000            -16.5412
168                 8.425000            -20.7699
170                 8.525000            -29.6667
172                 8.625000            100.599
174                 8.725000            310.44
176                 8.825000            303.919
178                 8.925000            44.7801
180                 9.025000            -108.491
182                 9.125000            56.2487
184                 9.225000            281.257
186                 9.325000            252.394
188                 9.425000            45.4494
190                 9.525000            -64.7241
192                 9.625000            -29.4696
194                 9.725000            -5.591086
196                 9.825000            -31.5299
198                 9.925000            1.709948
200                 10.025           90.8231
202                 10.125           95.6899
204                 10.225           -1.743944
206                 10.325           -44.7534
208                 10.425           52.9196
210                 10.525           197.881
212                 10.625           268.072
214                 10.725           221.087
216                 10.825           83.7794
218                 10.925           -41.1994
220                 11.025           -36.5471
222                 11.125           67.0511
224                 11.225           108.628
226                 11.325           36.9846
228                 11.425           -22.7106
230                 11.525           21.1546
232                 11.625           112.167
234                 11.725           156.694
236                 11.825           120.83
238                 11.925           37.9093
240                 12.025           -8.861864
242                 12.125           20.848
244                 12.225           44.7771
246                 12.325           -11.885
248                 12.425           -68.0183
250                 12.525           -23.8907
252                 12.625           64.4959
254                 12.725           106.999
256                 12.825           116.97
258                 12.925           103.544
260                 13.025           37.1136
262                 13.125           -11.0761
264                 13.225           47.1645
266                 13.325           105.35
268                 13.425           35.4649
270                 13.525           -28.4014
272                 13.625           76.1597
274                 13.725           195.4
276                 13.825           118.365
278                 13.925           -35.2352
280                 14.025           -43.2338
282                 14.125           40.5689
284                 14.225           46.95
286                 14.325           -7.193173
288                 14.425           -13.8528
290                 14.525           38.1645
292                 14.625           98.5267
294                 14.725           113.865
296                 14.825           50.4876
298                 14.925           -24.1231
300                 15.025           -3.323287
302                 15.125           56.7647
304                 15.225           24.033
306                 15.325           -32.8779
308                 15.425           31.194
310                 15.525           118.795
312                 15.625           63.3394
314                 15.725           -28.494
316                 15.825           10.2826
318                 15.925           73.9287
320                 16.025           28.246
322                 16.125           -1.882524
324                 16.225           86.1661
326                 16.325           140.907
328                 16.425           65.5192
330                 16.525           -2.663487
332                 16.625           10.696
334                 16.725           11.1918
336                 16.825           -6.857336
338                 16.925           36.7119
340                 17.025           78.3021
342                 17.125           23.0073
344                 17.225           -34.0406
346                 17.325           7.328465
348                 17.425           47.5733
350                 17.525           9.411860
352                 17.625           1.323775
354                 17.725           70.3377
356                 17.825           87.1974
358                 17.925           12.3507
360                 18.025           -22.6359
362                 18.125           25.1137
364                 18.225           51.3127
366                 18.325           27.0825
368                 18.425           28.2362
370                 18.525           60.6008
372                 18.625           60.3054
374                 18.725           23.6035
376                 18.825           -5.129172
378                 18.925           -8.752550
380                 19.025           15.1062
382                 19.125           57.8415
384                 19.225           71.9491
386                 19.325           31.679
388                 19.425           -4.896607
390                 19.525           13.97
392                 19.625           43.8999
394                 19.725           32.0713
396                 19.825           9.176934
398                 19.925           11.7954
399                 19.975           13.8151