Folder: LmpXrd/dev_example/Ni_10x10x10/pyxrd

Note: README.md
# XrdDev
Codes for partial distribution function and XRD

File: o.S_XRD.dat
bin                 q                   S
0                   0.025000            -1050.08
2                   0.125000            -286.676
4                   0.225000            380.131
6                   0.325000            377.316
8                   0.425000            367.005
10                  0.525000            397.701
12                  0.625000            0.392605
14                  0.725000            -394.683
16                  0.825000            -310.368
18                  0.925000            -201.401
20                  1.025000            -185.555
22                  1.125000            212.551
24                  1.225000            556.77
26                  1.325000            182.383
28                  1.425000            -88.6848
30                  1.525000            493.544
32                  1.625000            788.208
34                  1.725000            6.754790
36                  1.825000            -534.349
38                  1.925000            -77.0208
40                  2.025000            127.646
42                  2.125000            -371.134
44                  2.225000            -385.574
46                  2.325000            109.168
48                  2.425000            -14.5787
50                  2.525000            -352.049
52                  2.625000            22.4272
54                  2.725000            153.432
56                  2.825000            -491.397
58                  2.925000            124.757
60                  3.025000            2602.37
62                  3.125000            3575.67
64                  3.225000            1244.19
66                  3.325000            -870.129
68                  3.425000            198.705
70                  3.525000            1941.3
72                  3.625000            1345.01
74                  3.725000            -82.9578
76                  3.825000            -66.8231
78                  3.925000            366.181
80                  4.025000            -102.514
82                  4.125000            -363.989
84                  4.225000            251.003
86                  4.325000            435.884
88                  4.425000            -118.037
90                  4.525000            -93.4844
92                  4.625000            394.454
94                  4.725000            -10.6332
96                  4.825000            -696.124
98                  4.925000            12.6201
100                 5.025000            1286.41
102                 5.125000            1028.44
104                 5.225000            -220.194
106                 5.325000            -373.67
108                 5.425000            340.125
110                 5.525000            213.611
112                 5.625000            -465.846
114                 5.725000            -135.132
116                 5.825000            954.47
118                 5.925000            1279.44
120                 6.025000            703.088
122                 6.125000            260.644
124                 6.225000            213.993
126                 6.325000            115.923
128                 6.425000            -40.703
130                 6.525000            -26.2223
132                 6.625000            20.9286
134                 6.725000            -39.1904
136                 6.825000            -54.2313
138                 6.925000            22.9345
140                 7.025000            70.1298
142                 7.125000            124.835
144                 7.225000            226.171
146                 7.325000            175.915
148                 7.425000            -74.4883
150                 7.525000            -192.18
152                 7.625000            14.0075
154                 7.725000            290.151
156                 7.825000            389.743
158                 7.925000            359.766
160                 8.025000            271.929
162                 8.125000            121.236
164                 8.225000            -4.029108
166                 8.325000            -23.119
168                 8.425000            -19.4886
170                 8.525000            -23.996
172                 8.625000            97.3909
174                 8.725000            306.282
176                 8.825000            308.402
178                 8.925000            47.0904
180                 9.025000            -113.51
182                 9.125000            55.8586
184                 9.225000            286.106
186                 9.325000            251.046
188                 9.425000            41.3772
190                 9.525000            -62.0078
192                 9.625000            -26.6065
194                 9.725000            -9.178885
196                 9.825000            -32.9623
198                 9.925000            5.601769
200                 10.025           90.7871
202                 10.125           92.0202
204                 10.225           -0.402796
206                 10.325           -41.7584
208                 10.425           50.5749
210                 10.525           195.876
212                 10.625           271.024
214                 10.725           221.952
216                 10.825           80.6723
218                 10.925           -40.9093
220                 11.025           -33.6945
222                 11.125           65.7497
224                 11.225           106.37
226                 11.325           39.0355
228                 11.425           -21.2898
230                 11.525           18.682
232                 11.625           111.693
234                 11.725           159.234
236                 11.825           120.379
238                 11.925           35.6404
240                 12.025           -7.615361
242                 12.125           22.5753
244                 12.225           42.9577
246                 12.325           -12.8941
248                 12.425           -65.9124
250                 12.525           -23.6831
252                 12.625           62.3913
254                 12.725           107.555
256                 12.825           118.8
258                 12.925           102.355
260                 13.025           35.7807
262                 13.125           -9.450934
264                 13.225           47.8642
266                 13.325           103.531
268                 13.425           35.4451
270                 13.525           -26.6388
272                 13.625           75.5441
274                 13.725           193.923
276                 13.825           119.498
278                 13.925           -34.2116
280                 14.025           -44.6986
282                 14.125           40.1032
284                 14.225           48.5318
286                 14.325           -7.314238
288                 14.425           -15.3419
290                 14.525           38.816
292                 14.625           99.7335
294                 14.725           112.802
296                 14.825           49.7054
298                 14.925           -22.8118
300                 15.025           -3.040336
302                 15.125           55.3905
304                 15.225           24.2528
306                 15.325           -31.6275
308                 15.425           30.5286
310                 15.525           117.823
312                 15.625           64.3365
314                 15.725           -27.911
316                 15.825           9.104933
318                 15.925           73.7872
320                 16.025           29.4384
322                 16.125           -2.175469
324                 16.225           85.1167
326                 16.325           141.573
328                 16.425           66.301
330                 16.525           -3.588532
332                 16.625           10.2713
334                 16.725           12.2401
336                 16.825           -6.825948
338                 16.925           35.6827
340                 17.025           78.6434
342                 17.125           23.883
344                 17.225           -34.6884
346                 17.325           6.710746
348                 17.425           48.4228
350                 17.525           9.703327
352                 17.625           0.393778
354                 17.725           70.3909
356                 17.825           88.0821
358                 17.925           11.9814
360                 18.025           -23.3611
362                 18.125           25.7323
364                 18.225           51.792
366                 18.325           26.3096
368                 18.425           28.0508
370                 18.525           61.4188
372                 18.625           60.1917
374                 18.725           22.8524
376                 18.825           -4.747918
378                 18.925           -8.163225
380                 19.025           14.5217
382                 19.125           57.4804
384                 19.225           72.6481
386                 19.325           31.779
388                 19.425           -5.610119
390                 19.525           14.1299
392                 19.625           44.5338
394                 19.725           31.6877
396                 19.825           8.700652
398                 19.925           12.339
399                 19.975           14.4463