Folder: LmpXrd/dev_example/ljab/pyxrd

Note: README.md
# XrdDev
Codes for partial distribution function and XRD

File: o.S_XRD.dat
bin                 q                   S
0                   0.025000            1.454097
2                   0.125000            1.448303
4                   0.225000            1.444009
6                   0.325000            1.458314
8                   0.425000            1.506140
10                  0.525000            1.590770
12                  0.625000            1.699350
14                  0.725000            1.805731
16                  0.825000            1.879553
18                  0.925000            1.897631
20                  1.025000            1.852717
22                  1.125000            1.755981
24                  1.225000            1.632353
26                  1.325000            1.510946
28                  1.425000            1.414648
30                  1.525000            1.353016
32                  1.625000            1.320923
34                  1.725000            1.302892
36                  1.825000            1.280795
38                  1.925000            1.241550
40                  2.025000            1.181835
42                  2.125000            1.108369
44                  2.225000            1.034193
46                  2.325000            0.972897
48                  2.425000            0.933266
50                  2.525000            0.916345
52                  2.625000            0.915778
54                  2.725000            0.920892
56                  2.825000            0.921068
58                  2.925000            0.909605
60                  3.025000            0.885711
62                  3.125000            0.854093
64                  3.225000            0.822591
66                  3.325000            0.798930
68                  3.425000            0.787918
70                  3.525000            0.790040
72                  3.625000            0.801844
74                  3.725000            0.817760
76                  3.825000            0.832535
78                  3.925000            0.843322
80                  4.025000            0.850656
82                  4.125000            0.858066
84                  4.225000            0.870566
86                  4.325000            0.892695
88                  4.425000            0.926870
90                  4.525000            0.972660
92                  4.625000            1.027211
94                  4.725000            1.086611
96                  4.825000            1.147628
98                  4.925000            1.209182
100                 5.025000            1.273007
102                 5.125000            1.343304
104                 5.225000            1.425565
106                 5.325000            1.525058
108                 5.425000            1.645551
110                 5.525000            1.788740
112                 5.625000            1.954532
114                 5.725000            2.141971
116                 5.825000            2.350309
118                 5.925000            2.579635
120                 6.025000            2.830631
122                 6.125000            3.103360
124                 6.225000            3.395420
126                 6.325000            3.700099
128                 6.425000            4.005295
130                 6.525000            4.293821
132                 6.625000            4.545288
134                 6.725000            4.739289
136                 6.825000            4.859146
138                 6.925000            4.895247
140                 7.025000            4.847058
142                 7.125000            4.723233
144                 7.225000            4.539796
146                 7.325000            4.316863
148                 7.425000            4.074793
150                 7.525000            3.830770
152                 7.625000            3.596594
154                 7.725000            3.378110
156                 7.825000            3.176157
158                 7.925000            2.988529
160                 8.025000            2.812195
162                 8.125000            2.645078
164                 8.225000            2.486930
166                 8.325000            2.339200
168                 8.425000            2.204162
170                 8.525000            2.083763
172                 8.625000            1.978679
174                 8.725000            1.887945
176                 8.825000            1.809216
178                 8.925000            1.739525
180                 9.025000            1.676181
182                 9.125000            1.617477
184                 9.225000            1.562944
186                 9.325000            1.513134
188                 9.425000            1.469041
190                 9.525000            1.431444
192                 9.625000            1.400423
194                 9.725000            1.375224
196                 9.825000            1.354486
198                 9.925000            1.336706
200                 10.025           1.320728
202                 10.125           1.306056
204                 10.225           1.292891
206                 10.325           1.281876
208                 10.425           1.273703
210                 10.525           1.268730
212                 10.625           1.266786
214                 10.725           1.267212
216                 10.825           1.269116
218                 10.925           1.271716
220                 11.025           1.274622
222                 11.125           1.277928
224                 11.225           1.282095
226                 11.325           1.287662
228                 11.425           1.294916
230                 11.525           1.303666
232                 11.625           1.313201
234                 11.725           1.322463
236                 11.825           1.330362
238                 11.925           1.336110
240                 12.025           1.339445
242                 12.125           1.340663
244                 12.225           1.340449
246                 12.325           1.339574
248                 12.425           1.338580
250                 12.525           1.337567
252                 12.625           1.336151
254                 12.725           1.333610
256                 12.825           1.329145
258                 12.925           1.322154
260                 13.025           1.312420
262                 13.125           1.300145
264                 13.225           1.285831
266                 13.325           1.270071
268                 13.425           1.253323
270                 13.525           1.235764
272                 13.625           1.217275
274                 13.725           1.197542
276                 13.825           1.176231
278                 13.925           1.153162
280                 14.025           1.128417
282                 14.125           1.102333
284                 14.225           1.075409
286                 14.325           1.048156
288                 14.425           1.020963
290                 14.525           0.994031
292                 14.625           0.967384
294                 14.725           0.940961
296                 14.825           0.914736
298                 14.925           0.888799
300                 15.025           0.863390
302                 15.125           0.838847
304                 15.225           0.815502
306                 15.325           0.793569
308                 15.425           0.773076
310                 15.525           0.753862
312                 15.625           0.735649
314                 15.725           0.718156
316                 15.825           0.701213
318                 15.925           0.684827
320                 16.025           0.669173
322                 16.125           0.654516
324                 16.225           0.641091
326                 16.325           0.628985
328                 16.425           0.618073
330                 16.525           0.608033
332                 16.625           0.598426
334                 16.725           0.588828
336                 16.825           0.578957
338                 16.925           0.568756
340                 17.025           0.558406
342                 17.125           0.548256
344                 17.225           0.538712
346                 17.325           0.530107
348                 17.425           0.522600
350                 17.525           0.516132
352                 17.625           0.510456
354                 17.725           0.505210
356                 17.825           0.500021
358                 17.925           0.494599
360                 18.025           0.488793
362                 18.125           0.482605
364                 18.225           0.476160
366                 18.325           0.469638
368                 18.425           0.463218
370                 18.525           0.457015
372                 18.625           0.451061
374                 18.725           0.445298
376                 18.825           0.439603
378                 18.925           0.433827
380                 19.025           0.427828
382                 19.125           0.421516
384                 19.225           0.414866
386                 19.325           0.407933
388                 19.425           0.400843
390                 19.525           0.393769
392                 19.625           0.386899
394                 19.725           0.380385
396                 19.825           0.374307
398                 19.925           0.368647
399                 19.975           0.365937