Folder: LmpXrd/example/ljab/cpp

Note: README.md
# XrdDev
Codes for partial distribution function and XRD

File: o.S_XRD.dat
bin                 q                   S
0                   0.025000            1.481613
2                   0.125000            1.473195
4                   0.225000            1.463402
6                   0.325000            1.470643
8                   0.425000            1.511427
10                  0.525000            1.590436
12                  0.625000            1.695674
14                  0.725000            1.801134
16                  0.825000            1.875955
18                  0.925000            1.896058
20                  1.025000            1.853241
22                  1.125000            1.757951
24                  1.225000            1.634793
26                  1.325000            1.512961
28                  1.425000            1.415706
30                  1.525000            1.353039
32                  1.625000            1.320204
34                  1.725000            1.301906
36                  1.825000            1.279988
38                  1.925000            1.241188
40                  2.025000            1.181955
42                  2.125000            1.108818
44                  2.225000            1.034731
46                  2.325000            0.973308
48                  2.425000            0.933429
50                  2.525000            0.916264
52                  2.625000            0.915553
54                  2.725000            0.920662
56                  2.825000            0.920950
58                  2.925000            0.909653
60                  3.025000            0.885907
62                  3.125000            0.854365
64                  3.225000            0.822846
66                  3.325000            0.799096
68                  3.425000            0.787963
70                  3.525000            0.789980
72                  3.625000            0.801729
74                  3.725000            0.817651
76                  3.825000            0.832480
78                  3.925000            0.843341
80                  4.025000            0.850738
82                  4.125000            0.858177
84                  4.225000            0.870665
86                  4.325000            0.892750
88                  4.425000            0.926868
90                  4.525000            0.972610
92                  4.625000            1.027137
94                  4.725000            1.086539
96                  4.825000            1.147579
98                  4.925000            1.209161
100                 5.025000            1.273007
102                 5.125000            1.343307
104                 5.225000            1.425554
106                 5.325000            1.525023
108                 5.425000            1.645495
110                 5.525000            1.788676
112                 5.625000            1.954479
114                 5.725000            2.141947
116                 5.825000            2.350324
118                 5.925000            2.579686
120                 6.025000            2.830703
122                 6.125000            3.103434
124                 6.225000            3.395476
126                 6.325000            3.700126
128                 6.425000            4.005293
130                 6.525000            4.293799
132                 6.625000            4.545261
134                 6.725000            4.739272
136                 6.825000            4.859147
138                 6.925000            4.895265
140                 7.025000            4.847082
142                 7.125000            4.723249
144                 7.225000            4.539790
146                 7.325000            4.316828
148                 7.425000            4.074734
150                 7.525000            3.830697
152                 7.625000            3.596525
154                 7.725000            3.378062
156                 7.825000            3.176141
158                 7.925000            2.988548
160                 8.025000            2.812242
162                 8.125000            2.645141
164                 8.225000            2.486993
166                 8.325000            2.339251
168                 8.425000            2.204195
170                 8.525000            2.083777
172                 8.625000            1.978680
174                 8.725000            1.887940
176                 8.825000            1.809212
178                 8.925000            1.739526
180                 9.025000            1.676187
182                 9.125000            1.617485
184                 9.225000            1.562951
186                 9.325000            1.513138
188                 9.425000            1.469043
190                 9.525000            1.431446
192                 9.625000            1.400429
194                 9.725000            1.375235
196                 9.825000            1.354502
198                 9.925000            1.336724
200                 10.025           1.320740
202                 10.125           1.306059
204                 10.225           1.292879
206                 10.325           1.281850
208                 10.425           1.273666
210                 10.525           1.268689
212                 10.625           1.266748
214                 10.725           1.267183
216                 10.825           1.269099
218                 10.925           1.271710
220                 11.025           1.274622
222                 11.125           1.277929
224                 11.225           1.282090
226                 11.325           1.287649
228                 11.425           1.294895
230                 11.525           1.303641
232                 11.625           1.313178
234                 11.725           1.322447
236                 11.825           1.330359
238                 11.925           1.336121
240                 12.025           1.339468
242                 12.125           1.340694
244                 12.225           1.340481
246                 12.325           1.339603
248                 12.425           1.338602
250                 12.525           1.337579
252                 12.625           1.336154
254                 12.725           1.333607
256                 12.825           1.329139
258                 12.925           1.322149
260                 13.025           1.312419
262                 13.125           1.300149
264                 13.225           1.285841
266                 13.325           1.270085
268                 13.425           1.253338
270                 13.525           1.235779
272                 13.625           1.217287
274                 13.725           1.197549
276                 13.825           1.176233
278                 13.925           1.153159
280                 14.025           1.128411
282                 14.125           1.102325
284                 14.225           1.075400
286                 14.325           1.048147
288                 14.425           1.020956
290                 14.525           0.994025
292                 14.625           0.967379
294                 14.725           0.940958
296                 14.825           0.914732
298                 14.925           0.888796
300                 15.025           0.863388
302                 15.125           0.838847
304                 15.225           0.815504
306                 15.325           0.793572
308                 15.425           0.773080
310                 15.525           0.753865
312                 15.625           0.735649
314                 15.725           0.718153
316                 15.825           0.701206
318                 15.925           0.684818
320                 16.025           0.669164
322                 16.125           0.654511
324                 16.225           0.641091
326                 16.325           0.628990
328                 16.425           0.618084
330                 16.525           0.608046
332                 16.625           0.598439
334                 16.725           0.588836
336                 16.825           0.578958
338                 16.925           0.568749
340                 17.025           0.558392
342                 17.125           0.548238
344                 17.225           0.538694
346                 17.325           0.530093
348                 17.425           0.522591
350                 17.525           0.516130
352                 17.625           0.510460
354                 17.725           0.505218
356                 17.825           0.500031
358                 17.925           0.494608
360                 18.025           0.488799
362                 18.125           0.482610
364                 18.225           0.476162
366                 18.325           0.469639
368                 18.425           0.463218
370                 18.525           0.457016
372                 18.625           0.451062
374                 18.725           0.445299
376                 18.825           0.439604
378                 18.925           0.433827
380                 19.025           0.427828
382                 19.125           0.421516
384                 19.225           0.414867
386                 19.325           0.407935
388                 19.425           0.400847
390                 19.525           0.393775
392                 19.625           0.386905
394                 19.725           0.380390
396                 19.825           0.374312
398                 19.925           0.368649
399                 19.975           0.365938