Folder: LmpXrd/example/ljab/pyxrd

Note: README.md
# XrdDev
Codes for partial distribution function and XRD

File: o.S_XRD.dat
bin                 q                   S
0                   0.025000            1.462683
2                   0.125000            1.455912
4                   0.225000            1.449568
6                   0.325000            1.461235
8                   0.425000            1.506434
10                  0.525000            1.588993
12                  0.625000            1.696416
14                  0.725000            1.802649
16                  0.825000            1.877163
18                  0.925000            1.896424
20                  1.025000            1.852775
22                  1.125000            1.757026
24                  1.225000            1.633891
26                  1.325000            1.512441
28                  1.425000            1.415677
30                  1.525000            1.353360
32                  1.625000            1.320589
34                  1.725000            1.302065
36                  1.825000            1.279754
38                  1.925000            1.240574
40                  2.025000            1.181129
42                  2.125000            1.108028
44                  2.225000            1.034199
46                  2.325000            0.973153
48                  2.425000            0.933635
50                  2.525000            0.916701
52                  2.625000            0.916031
54                  2.725000            0.921005
56                  2.825000            0.921054
58                  2.925000            0.909511
60                  3.025000            0.885594
62                  3.125000            0.854007
64                  3.225000            0.822566
66                  3.325000            0.798976
68                  3.425000            0.788019
70                  3.525000            0.790171
72                  3.625000            0.801973
74                  3.725000            0.817861
76                  3.825000            0.832594
78                  3.925000            0.843337
80                  4.025000            0.850637
82                  4.125000            0.858029
84                  4.225000            0.870530
86                  4.325000            0.892676
88                  4.425000            0.926876
90                  4.525000            0.972692
92                  4.625000            1.027264
94                  4.725000            1.086672
96                  4.825000            1.147684
98                  4.925000            1.209221
100                 5.025000            1.273022
102                 5.125000            1.343292
104                 5.225000            1.425530
106                 5.325000            1.525009
108                 5.425000            1.645499
110                 5.525000            1.788696
112                 5.625000            1.954505
114                 5.725000            2.141965
116                 5.825000            2.350325
118                 5.925000            2.579669
120                 6.025000            2.830675
122                 6.125000            3.103406
124                 6.225000            3.395460
126                 6.325000            3.700127
128                 6.425000            4.005308
130                 6.525000            4.293820
132                 6.625000            4.545274
134                 6.725000            4.739267
136                 6.825000            4.859121
138                 6.925000            4.895223
140                 7.025000            4.847037
142                 7.125000            4.723218
144                 7.225000            4.539786
146                 7.325000            4.316856
148                 7.425000            4.074788
150                 7.525000            3.830764
152                 7.625000            3.596586
154                 7.725000            3.378098
156                 7.825000            3.176143
158                 7.925000            2.988515
160                 8.025000            2.812183
162                 8.125000            2.645071
164                 8.225000            2.486930
166                 8.325000            2.339208
168                 8.425000            2.204178
170                 8.525000            2.083783
172                 8.625000            1.978701
174                 8.725000            1.887963
176                 8.825000            1.809227
178                 8.925000            1.739526
180                 9.025000            1.676174
182                 9.125000            1.617462
184                 9.225000            1.562926
186                 9.325000            1.513117
188                 9.425000            1.469029
190                 9.525000            1.431439
192                 9.625000            1.400426
194                 9.725000            1.375233
196                 9.825000            1.354499
198                 9.925000            1.336719
200                 10.025           1.320738
202                 10.125           1.306062
204                 10.225           1.292893
206                 10.325           1.281875
208                 10.425           1.273700
210                 10.525           1.268728
212                 10.625           1.266786
214                 10.725           1.267214
216                 10.825           1.269119
218                 10.925           1.271719
220                 11.025           1.274623
222                 11.125           1.277927
224                 11.225           1.282091
226                 11.325           1.287657
228                 11.425           1.294911
230                 11.525           1.303663
232                 11.625           1.313200
234                 11.725           1.322465
236                 11.825           1.330366
238                 11.925           1.336114
240                 12.025           1.339448
242                 12.125           1.340664
244                 12.225           1.340447
246                 12.325           1.339570
248                 12.425           1.338576
250                 12.525           1.337563
252                 12.625           1.336148
254                 12.725           1.333610
256                 12.825           1.329147
258                 12.925           1.322158
260                 13.025           1.312425
262                 13.125           1.300148
264                 13.225           1.285833
266                 13.325           1.270071
268                 13.425           1.253321
270                 13.525           1.235761
272                 13.625           1.217273
274                 13.725           1.197540
276                 13.825           1.176230
278                 13.925           1.153163
280                 14.025           1.128419
282                 14.125           1.102336
284                 14.225           1.075411
286                 14.325           1.048157
288                 14.425           1.020964
290                 14.525           0.994030
292                 14.625           0.967382
294                 14.725           0.940960
296                 14.825           0.914734
298                 14.925           0.888797
300                 15.025           0.863389
302                 15.125           0.838846
304                 15.225           0.815501
306                 15.325           0.793568
308                 15.425           0.773075
310                 15.525           0.753862
312                 15.625           0.735649
314                 15.725           0.718156
316                 15.825           0.701213
318                 15.925           0.684828
320                 16.025           0.669174
322                 16.125           0.654518
324                 16.225           0.641093
326                 16.325           0.628986
328                 16.425           0.618073
330                 16.525           0.608032
332                 16.625           0.598425
334                 16.725           0.588827
336                 16.825           0.578956
338                 16.925           0.568756
340                 17.025           0.558406
342                 17.125           0.548257
344                 17.225           0.538714
346                 17.325           0.530110
348                 17.425           0.522602
350                 17.525           0.516133
352                 17.625           0.510456
354                 17.725           0.505209
356                 17.825           0.500020
358                 17.925           0.494598
360                 18.025           0.488792
362                 18.125           0.482605
364                 18.225           0.476160
366                 18.325           0.469639
368                 18.425           0.463218
370                 18.525           0.457015
372                 18.625           0.451061
374                 18.725           0.445297
376                 18.825           0.439602
378                 18.925           0.433826
380                 19.025           0.427828
382                 19.125           0.421517
384                 19.225           0.414868
386                 19.325           0.407935
388                 19.425           0.400845
390                 19.525           0.393771
392                 19.625           0.386899
394                 19.725           0.380383
396                 19.825           0.374305
398                 19.925           0.368644
399                 19.975           0.365934